aX,aY,aZ,gX,gY,gZ
-0.232,0.021,-2.411,-42.114,125.793,73.975
-0.246,0.157,-2.687,16.052,69.214,67.2
-0.3,0.257,-3.017,70.435,-0.488,56.274
-0.403,0.462,-3.373,85.388,-82.336,45.105
-0.586,0.786,-3.62,82.764,-183.594,22.766
-0.755,1.161,-3.626,78.247,-309.631,-19.653
-0.914,1.343,-3.319,55.115,-447.571,-83.679
-1.169,1.413,-2.798,6.165,-575.989,-155.396
-1.57,1.263,-2.074,-56.091,-687.256,-229.248
-1.762,1.061,-1.311,-120.911,-788.025,-294.983
-2.033,0.768,-0.569,-187.256,-868.652,-348.755
-2.357,0.532,0.232,-262.817,-924.133,-387.207
-2.477,-0.133,1.505,-334.473,-969.849,-407.227
-2.583,-1.709,3.443,-460.022,-993.958,-387.451
-1.573,-3.275,4,-694.824,-947.205,-277.222
0.187,-2.729,4,-833.374,-747.62,-77.637
-0.007,-1.392,4,-680.176,-396.24,146.973
-0.853,0.622,4,-335.083,1.404,302.185
-0.882,2.032,4,157.349,245.911,322.693
-0.33,1.979,3.892,591.492,324.219,234.131
0.076,1.354,3.233,651.611,350.342,117.004
0.116,0.759,2.421,436.646,348.267,36.926
0.251,0.364,1.694,206.909,306.458,13.855
0.295,0.187,1.073,37.537,259.888,13.55
0.339,-0.053,0.623,-70.19,214.722,14.771
0.432,-0.302,0.466,-113.831,172.791,6.653
0.511,-0.566,0.51,-118.164,142.578,5.493
0.546,-0.618,0.463,-114.197,131.104,23.315
0.568,-0.453,0.355,-102.844,146.912,37.964
0.557,-0.259,0.22,-67.261,172.424,42.664
0.542,-0.144,0.061,-21.545,185.425,36.987
0.555,-0.092,-0.082,8.85,183.716,24.231
0.582,-0.12,-0.148,17.09,173.401,10.01
0.597,-0.23,-0.178,17.456,157.898,-0.732
0.609,-0.356,-0.154,10.254,142.212,-2.93
0.635,-0.495,-0.108,-8.362,130.371,1.099
0.648,-0.553,-0.069,-42.48,122.314,11.597
0.674,-0.492,-0.067,-76.904,115.417,25.757
0.694,-0.349,-0.069,-91.125,106.567,33.691
0.722,-0.235,-0.085,-79.773,95.764,34.485
0.771,-0.202,0.006,-54.199,87.524,28.687
0.82,-0.26,0.041,-33.569,86.67,21.851
0.818,-0.292,0.017,-25.696,89.355,19.653
0.828,-0.272,-0.02,-25.879,92.102,22.217
0.84,-0.203,-0.05,-28.687,92.285,25.024
0.89,-0.174,-0.109,-32.288,89.233,23.437
0.901,-0.117,-0.126,-43.335,80.994,20.935
0.91,-0.111,-0.178,-44.189,64.88,16.724
0.932,-0.14,-0.173,-41.016,49.316,9.705
0.922,-0.223,-0.127,-41.687,37.292,6.165
0.924,-0.288,-0.093,-46.875,28.32,8.301
0.908,-0.295,-0.083,-56.702,24.719,14.587
0.89,-0.252,-0.095,-66.589,25.33,21.179
0.885,-0.196,-0.118,-66.528,26.794,23.804
0.888,-0.155,-0.138,-57.678,26.306,22.278
0.912,-0.144,-0.146,-44.006,25.146,17.212
0.929,-0.176,-0.148,-30.518,23.376,11.536
0.938,-0.21,-0.159,-23.621,21.851,9.155
0.961,-0.215,-0.17,-22.583,20.081,11.108
0.985,-0.2,-0.202,-20.142,15.442,13
0.997,-0.188,-0.233,-17.578,7.141,13.489
1.005,-0.195,-0.242,-17.395,-2.136,14.221
1.013,-0.204,-0.234,-20.264,-11.963,16.785
1.015,-0.225,-0.219,-25.696,-21.24,20.935
1.006,-0.243,-0.2,-33.447,-28.381,25.574
1.005,-0.25,-0.189,-39.734,-35.217,31.86
1.001,-0.234,-0.185,-45.044,-41.748,39.185
1,-0.199,-0.191,-48.401,-48.218,45.837
1.007,-0.148,-0.199,-47.302,-55.115,50.415
1.008,-0.113,-0.193,-42.297,-63.416,51.88
1.003,-0.097,-0.165,-35.645,-73.12,51.636
1,-0.103,-0.117,-28.564,-81.909,51.453
0.993,-0.119,-0.065,-28.381,-87.585,52.612
0.989,-0.11,-0.015,-34.607,-89.539,55.908
0.991,-0.098,0.018,-36.438,-89.844,58.838
0.999,-0.093,0.031,-34.607,-89.539,60.425
1,-0.085,0.055,-35.034,-90.881,62.561
1.001,-0.103,0.088,-33.142,-93.14,66.04
1.002,-0.107,0.13,-33.142,-95.215,69.946
1,-0.101,0.166,-35.4,-96.924,75.378
0.995,-0.076,0.224,-37.72,-97.717,81.482
0.99,-0.045,0.293,-38.33,-97.168,87.28
0.989,0.009,0.355,-37.048,-93.872,91.858
0.989,0.082,0.396,-33.997,-87.585,93.506
0.993,0.146,0.423,-28.87,-79.529,92.041
0.997,0.195,0.443,-21.973,-71.106,87.585
1,0.233,0.457,-14.709,-63.293,80.505
1.001,0.255,0.47,-8.728,-57.007,71.838
1.005,0.253,0.495,-4.15,-52.734,62.134
1.014,0.236,0.528,0.916,-50.537,53.162
1.022,0.23,0.579,5.615,-50.537,46.082
1.02,0.223,0.664,11.536,-52.49,39.673
1.017,0.184,0.738,19.165,-53.162,33.264
1.004,0.143,0.783,20.691,-47.729,28.809
0.992,0.123,0.766,14.709,-33.264,27.71
0.964,0.167,0.691,4.517,-12.634,29.602
0.93,0.24,0.592,-1.16,6.653,29.602
0.908,0.286,0.494,2.93,20.569,24.475
0.895,0.293,0.419,11.658,28.625,16.663
0.891,0.272,0.368,20.935,32.349,9.521
0.884,0.247,0.335,28.137,32.593,4.7
0.888,0.227,0.321,31.555,30.334,2.625
0.886,0.199,0.328,30.884,25.818,2.93
0.888,0.196,0.339,27.283,20.569,6.104
0.885,0.198,0.353,21.179,15.259,10.315
0.881,0.209,0.365,12.451,10.193,14.587
0.875,0.224,0.371,4.883,5.676,18.372
0.867,0.236,0.391,-0.122,2.686,21.118
0.865,0.238,0.42,-3.174,2.319,22.949
0.87,0.255,0.433,-4.639,4.639,23.926
0.867,0.284,0.42,-3.845,9.155,22.827
0.872,0.309,0.395,-0.244,13.977,19.226
0.879,0.321,0.368,4.822,18.311,13.794
0.886,0.32,0.345,9.766,21.423,7.507
0.891,0.307,0.329,13.489,23.926,1.892
0.895,0.286,0.316,14.221,25.452,-2.197
0.9,0.271,0.3,12.756,26.367,-5.554
0.903,0.257,0.282,11.23,25.94,-8.362
0.906,0.237,0.27,9.216,23.804,-9.888
,,,,,
0.458,-1.043,-2.128,-150.33,31.25,-86.548
0.354,-1.064,-2.527,-149.658,-21.545,-51.025
0.317,-1.072,-2.712,-72.693,-107.91,-20.752
0.382,-1.235,-2.812,46.997,-218.506,4.089
0.193,-1.307,-2.864,115.295,-345.337,38.696
-0.105,-1.136,-2.788,119.141,-480.713,83.13
-0.472,-0.777,-2.514,89.6,-622.62,117.737
-0.947,-0.417,-2.088,55.603,-766.663,127.747
-1.504,-0.152,-1.435,12.085,-904.785,119.69
-2.244,0.205,-0.462,-82.581,-1019.165,107.239
-2.674,0.552,0.831,-204.712,-1074.402,88.623
-2.821,0.345,3.885,-244.446,-1062.744,75.134
-1.882,0.427,4,-187.744,-929.504,85.632
0.207,0.441,4,-130.432,-572.449,73.303
0.001,0.501,4,-27.039,-120.605,31.86
-0.698,0.684,4,153.442,257.385,65.796
-0.892,1.191,3.198,335.937,429.321,120.361
-0.603,1.508,2.599,434.57,439.026,92.468
-0.206,1.306,2.186,410.706,399.963,15.564
-0.045,0.736,1.739,286.377,373.718,-30.579
0.066,0.222,1.288,145.447,351.868,-39.185
0.119,-0.139,0.911,28.442,311.768,-32.654
0.209,-0.377,0.7,-66.467,263.367,-16.846
0.272,-0.569,0.711,-120.605,222.107,1.587
0.367,-0.728,0.757,-134.644,195.74,21.057
0.405,-0.752,0.761,-123.596,183.411,39.307
0.388,-0.601,0.758,-94.727,187.134,57.495
0.39,-0.403,0.724,-72.205,209.534,75.806
0.382,-0.172,0.588,-64.575,234.558,78.43
0.387,-0.018,0.406,-51.208,250.916,64.087
0.416,0.031,0.23,-20.691,254.7,39.551
0.472,-0.013,0.122,16.235,247.925,14.221
0.538,-0.142,0.113,45.044,235.413,-4.211
0.573,-0.306,0.098,49.194,222.9,-11.536
0.568,-0.386,0.077,21.179,213.867,-5.798
0.586,-0.359,0.016,-19.592,206.726,5.249
0.619,-0.285,-0.048,-41.748,196.289,14.465
0.651,-0.208,-0.104,-46.875,183.594,18.127
0.695,-0.13,-0.128,-43.457,171.326,16.968
0.73,-0.1,-0.155,-30.273,161.133,10.864
0.776,-0.116,-0.196,-11.536,151.367,2.625
0.797,-0.148,-0.259,-1.465,141.113,-1.465
0.821,-0.198,-0.312,0.122,129.822,-1.404
0.848,-0.242,-0.347,-5.92,117.554,2.258
0.859,-0.259,-0.381,-19.775,104.797,9.827
0.868,-0.241,-0.404,-36.743,91.309,18.372
0.876,-0.226,-0.411,-48.889,76.843,25.452
0.875,-0.219,-0.402,-55.176,63.11,30.579
0.877,-0.197,-0.392,-58.228,53.162,34.302
0.875,-0.169,-0.382,-57.068,46.814,35.034
0.878,-0.143,-0.373,-48.706,42.419,32.288
0.887,-0.135,-0.366,-35.4,39.673,27.649
0.897,-0.147,-0.37,-23.193,38.696,22.827
0.905,-0.156,-0.387,-16.418,38.696,19.409
0.913,-0.152,-0.41,-13.611,38.147,17.517
0.922,-0.152,-0.435,-12.329,36.194,16.602
0.932,-0.158,-0.461,-10.376,32.776,16.296
0.942,-0.158,-0.476,-6.958,28.076,17.578
0.953,-0.151,-0.49,-5.432,22.4,20.264
0.962,-0.127,-0.476,-3.784,15.503,22.644
0.968,-0.11,-0.443,0.061,8.911,24.048
0.97,-0.111,-0.397,3.906,3.357,24.902
0.97,-0.107,-0.358,6.653,0.427,26.306
0.968,-0.101,-0.332,7.874,-0.183,28.137
0.968,-0.087,-0.319,5.554,0.854,30.64
0.975,-0.06,-0.326,1.526,2.808,33.752
0.98,-0.018,-0.336,-1.099,4.272,35.645
0.989,0.024,-0.342,0.061,3.845,35.95
1,0.06,-0.331,3.54,1.648,33.875
1.001,0.079,-0.313,7.324,-0.732,29.846
1.005,0.085,-0.291,9.827,-2.563,25.452
1.004,0.082,-0.273,10.01,-3.479,21.24
1,0.073,-0.255,7.08,-3.052,17.639
0.991,0.05,-0.235,2.319,-2.136,15.076
0.98,0.035,-0.225,-2.197,-0.671,13.367
0.966,0.034,-0.229,-6.165,1.77,12.268
0.954,0.037,-0.237,-8.606,5.188,10.864
0.948,0.041,-0.239,-8.179,8.118,8.667
0.939,0.037,-0.24,-5.005,10.742,5.432
0.932,0.038,-0.246,-1.587,13.184,2.38
0.926,0.054,-0.255,0.305,15.625,-0.549
0.922,0.063,-0.268,2.563,17.395,-4.517
0.92,0.052,-0.278,5.981,17.456,-9.583
0.92,0.027,-0.283,9.216,16.296,-13.733
0.926,-0.002,-0.287,10.62,14.282,-16.052
0.927,-0.028,-0.289,9.521,11.536,-16.296
0.929,-0.051,-0.287,6.531,8.24,-14.465
0.936,-0.067,-0.278,1.831,5.005,-11.169
0.945,-0.081,-0.268,-1.587,0.977,-7.568
0.949,-0.088,-0.252,-3.601,-3.052,-3.601
0.956,-0.083,-0.232,-4.944,-7.507,0.671
0.959,-0.068,-0.209,-6.531,-10.803,4.822
0.957,-0.046,-0.191,-6.836,-13.062,8.179
0.956,-0.026,-0.176,-5.31,-14.404,9.644
0.957,-0.014,-0.158,-2.93,-14.893,9.766
0.959,-0.008,-0.141,-0.549,-14.465,8.667
0.962,-0.008,-0.131,0.671,-12.878,7.324
0.966,-0.012,-0.125,0.427,-10.559,6.531
0.968,-0.011,-0.127,-1.099,-7.996,5.798
0.972,-0.008,-0.135,-1.404,-6.042,4.578
0.973,-0.015,-0.143,-0.977,-4.761,3.113
0.973,-0.023,-0.148,-0.305,-4.333,2.014
0.977,-0.025,-0.153,-0.366,-3.479,1.282
0.978,-0.023,-0.162,-0.61,-2.93,0.977
0.98,-0.025,-0.169,-0.61,-2.686,0.61
0.981,-0.025,-0.174,-0.244,-2.686,0.305
0.979,-0.017,-0.177,-0.183,-2.563,0.183
0.977,-0.006,-0.183,-0.732,-2.625,-0.244
0.975,0.001,-0.189,-1.587,-2.686,-1.526
0.974,0.005,-0.196,-0.549,-3.052,-3.235
0.972,-0.004,-0.199,0.854,-3.662,-5.249
0.975,-0.011,-0.197,1.099,-3.906,-6.531
0.976,-0.027,-0.194,1.709,-4.883,-7.69
0.975,-0.046,-0.192,0.671,-4.761,-7.812
0.978,-0.048,-0.193,-2.319,-4.639,-6.714
0.979,-0.047,-0.188,-3.113,-4.272,-5.31
0.982,-0.043,-0.185,-2.869,-4.211,-4.7
0.982,-0.035,-0.187,-2.014,-4.028,-4.578
0.986,-0.032,-0.187,-1.282,-3.906,-5.005
,,,,,
0.201,-1.013,-2.581,-39.368,34.607,-112.122
0.017,-1.111,-2.908,-27.954,-66.467,-55.908
-0.127,-1.223,-3.181,5.798,-191.04,-1.343
-0.043,-1.135,-3.227,40.1,-338.623,36.804
-0.221,-0.973,-3.007,29.419,-504.944,88.135
-0.792,-0.571,-2.576,16.602,-687.683,141.602
-1.45,-0.32,-1.982,63.11,-867.004,154.724
-2.209,0.063,-1.226,130.432,-1025.879,115.479
-2.951,0.018,0.249,160.828,-1149.414,46.143
-3.375,-0.281,3.201,-37.842,-1203.918,18.555
-1.945,-1.32,4,-263.611,-1154.663,53.955
-0.235,-0.526,4,-465.515,-862.183,143.25
-0.044,0.568,4,-323.73,-368.713,151.245
-0.097,2.097,4,-19.897,131.287,148.132
-0.2,2.436,4,321.106,421.204,114.624
-0.039,1.88,3.104,510.803,491.15,10.437
0.191,1.252,2.196,424.561,473.328,-91.675
0.309,0.677,1.425,219.727,446.228,-133.301
0.452,0.209,0.82,65.43,408.875,-129.883
0.473,-0.155,0.431,-39.673,348.816,-113.037
0.495,-0.419,0.278,-130.676,279.968,-90.088
0.576,-0.618,0.367,-180.237,222.046,-64.453
0.646,-0.755,0.544,-174.927,184.265,-38.696
0.652,-0.839,0.7,-136.841,172.18,-18.188
0.627,-0.721,0.648,-104.126,185.852,-0.61
0.572,-0.548,0.448,-82.397,210.754,17.822
0.584,-0.352,0.244,-64.026,231.323,22.827
0.548,-0.274,0.063,-56.03,241.028,17.029
0.552,-0.241,-0.142,-52.795,236.267,7.202
0.583,-0.275,-0.219,-26.672,217.651,0.916
0.605,-0.328,-0.259,-15.442,196.472,1.465
0.609,-0.363,-0.288,-35.889,177.002,7.629
0.607,-0.353,-0.303,-65.857,159.424,15.869
0.611,-0.317,-0.312,-94.421,143.555,24.048
0.625,-0.258,-0.338,-111.023,129.456,28.687
0.639,-0.219,-0.347,-117.859,116.821,27.771
0.655,-0.175,-0.356,-109.985,104.797,23.315
0.689,-0.162,-0.337,-79.895,92.59,14.465
0.715,-0.18,-0.305,-41.992,81.604,4.395
0.738,-0.217,-0.286,-8.728,73.12,-2.563
0.762,-0.237,-0.284,11.169,67.383,-6.409
0.782,-0.258,-0.297,17.639,63.171,-7.324
0.801,-0.275,-0.328,10.742,59.998,-5.249
0.826,-0.253,-0.368,-5.493,56.152,-1.343
0.84,-0.237,-0.398,-19.958,50.293,1.282
0.854,-0.218,-0.408,-28.809,42.175,3.052
0.862,-0.21,-0.405,-29.48,33.264,2.441
0.873,-0.208,-0.397,-23.621,24.597,0.366
0.885,-0.215,-0.374,-16.968,15.686,-2.258
0.892,-0.245,-0.335,-7.996,7.08,-4.761
0.903,-0.277,-0.301,0.366,1.221,-5.371
0.913,-0.29,-0.277,4.944,-1.221,-3.662
0.919,-0.283,-0.26,4.7,-1.648,-0.671
0.925,-0.272,-0.247,3.418,-0.427,2.625
0.922,-0.254,-0.249,0.61,2.808,6.165
0.924,-0.234,-0.264,-1.648,6.531,8.606
0.919,-0.22,-0.262,2.014,9.033,9.155
0.914,-0.224,-0.267,8.362,10.437,8.789
0.915,-0.235,-0.28,12.024,10.315,8.972
0.916,-0.245,-0.294,13.184,8.362,10.681
0.913,-0.247,-0.302,12.146,4.089,14.832
0.91,-0.223,-0.301,9.888,-0.671,20.996
0.916,-0.203,-0.289,7.629,-5.676,28.503
0.916,-0.146,-0.273,3.479,-9.583,35.828
0.927,-0.076,-0.264,1.831,-11.719,39.734
0.94,-0.018,-0.232,6.226,-12.756,38.452
0.949,0.007,-0.202,14.343,-11.658,32.776
0.951,0.001,-0.171,22.217,-8.667,24.048
0.973,-0.041,-0.15,26.917,-4.272,14.709
0.988,-0.106,-0.137,26.978,0.671,8.057
0.991,-0.16,-0.156,21.118,6.958,6.042
0.989,-0.169,-0.196,11.902,14.526,7.324
0.992,-0.152,-0.234,5.127,20.63,9.277
0.992,-0.137,-0.27,4.211,23.682,10.559
0.993,-0.132,-0.301,7.019,24.719,10.864
0.994,-0.119,-0.326,10.376,24.414,11.292
0.995,-0.104,-0.346,11.719,23.254,11.292
0.991,-0.096,-0.361,12.756,21.423,10.559
0.991,-0.093,-0.368,13.977,18.982,9.094
0.988,-0.094,-0.371,15.259,16.357,7.446
0.985,-0.098,-0.372,15.503,14.16,5.859
0.984,-0.098,-0.366,16.113,12.207,4.944
0.98,-0.102,-0.36,17.639,10.254,4.272
0.981,-0.098,-0.355,18.921,8.606,3.784
0.98,-0.103,-0.352,18.982,6.47,3.601
0.977,-0.122,-0.358,17.395,4.15,4.456
0.975,-0.125,-0.361,12.634,1.77,6.775
0.97,-0.114,-0.356,7.935,-0.122,9.766
0.969,-0.094,-0.342,4.456,-1.648,11.902
0.969,-0.073,-0.325,3.174,-3.052,12.573
0.964,-0.064,-0.306,4.211,-4.211,11.902
0.964,-0.063,-0.293,6.287,-4.761,10.742
0.958,-0.054,-0.282,6.592,-4.089,9.827
0.953,-0.039,-0.279,5.249,-2.502,8.85
0.948,-0.024,-0.282,3.052,-0.977,7.324
0.945,-0.012,-0.282,1.892,-0.549,5.127
0.945,-0.013,-0.29,2.258,-0.244,2.197
0.945,-0.017,-0.294,3.235,-0.427,-0.244
0.945,-0.026,-0.286,3.845,-1.526,-2.014
0.947,-0.037,-0.275,5.066,-3.357,-3.296
0.948,-0.044,-0.266,5.127,-4.517,-3.601
0.953,-0.052,-0.251,4.333,-5.127,-3.479
0.955,-0.066,-0.238,4.211,-6.042,-3.052
0.954,-0.069,-0.234,3.296,-6.226,-1.831
0.955,-0.059,-0.234,0.122,-5.676,-0.916
0.954,-0.049,-0.238,-1.16,-5.066,-0.916
0.952,-0.047,-0.241,0.366,-4.7,-2.319
0.948,-0.048,-0.247,3.235,-4.761,-4.761
0.95,-0.058,-0.25,6.165,-4.639,-7.141
0.952,-0.059,-0.227,9.705,-5.188,-8.972
0.953,-0.082,-0.221,14.526,-4.944,-10.803
0.948,-0.108,-0.213,15.747,-3.662,-10.742
0.95,-0.115,-0.206,10.803,-1.648,-8.667
0.954,-0.107,-0.199,5.066,0,-6.531
0.951,-0.101,-0.202,1.953,1.343,-4.761
0.951,-0.096,-0.207,-0.183,2.93,-3.357
0.954,-0.09,-0.215,-2.38,4.15,-2.808
0.957,-0.088,-0.222,-2.258,4.7,-2.808
0.958,-0.095,-0.225,-0.793,4.333,-3.235
,,,,,
0.023,-1.309,-2.173,-103.027,54.504,-107.117
0.011,-1.453,-2.267,-131.042,-10.132,-58.716
0.039,-1.556,-2.357,-90.942,-94.727,-6.409
0.158,-1.817,-2.342,-25.879,-191.772,55.176
0.099,-1.747,-2.222,2.075,-302.002,141.724
-0.022,-1.423,-2.05,31.189,-421.326,227.417
-0.291,-1.2,-1.841,51.941,-547.546,296.875
-0.814,-0.948,-1.5,41.809,-677.429,352.173
-1.476,-0.49,-0.767,28.503,-806.152,389.648
-1.945,0.136,0.701,117.249,-909.79,377.991
-1.561,-1.123,4,305.359,-964.905,300.293
-1.27,-1.428,4,65.735,-862.549,326.294
-0.895,0.486,4,-163.33,-468.323,443.848
0.131,3.308,4,-122.253,-17.273,444.214
0.319,4,4,-29.541,257.935,329.285
0.413,4,2.827,55.42,337.891,123.291
0.606,3.293,2.108,86.426,327.026,-64.453
0.519,2.286,1.701,54.504,309.204,-203.064
0.342,1.507,1.288,12.939,312.561,-291.687
0.182,0.797,1.008,-11.353,324.89,-338.562
0.098,0.12,0.798,-25.879,330.2,-358.521
0.119,-0.461,0.672,-38.757,326.538,-353.271
0.125,-0.871,0.458,-49.622,321.411,-318.787
0.167,-1.074,0.29,-62.439,315.308,-263.855
0.232,-1.146,0.035,-55.847,306.458,-205.933
0.295,-1.109,-0.212,-32.715,290.039,-150.146
0.376,-1.02,-0.409,-15.381,268.616,-102.722
0.429,-0.914,-0.548,-7.019,244.202,-62.988
0.447,-0.828,-0.618,-7.935,216.37,-28.076
0.464,-0.705,-0.677,-21.851,186.89,2.93
0.48,-0.592,-0.675,-30.884,157.41,26.001
0.494,-0.485,-0.672,-45.654,132.202,41.748
0.508,-0.385,-0.662,-59.937,110.718,50.72
0.533,-0.324,-0.651,-66.223,90.576,52.307
0.566,-0.291,-0.647,-66.528,72.998,48.279
0.594,-0.247,-0.639,-63.782,57.007,40.649
0.627,-0.221,-0.594,-50.476,42.419,29.968
0.664,-0.23,-0.536,-28.687,29.907,18.25
0.699,-0.252,-0.496,-9.46,20.691,8.423
0.728,-0.278,-0.474,0.549,14.832,1.648
0.75,-0.293,-0.456,2.93,11.536,-1.404
0.773,-0.295,-0.439,-0.916,10.071,-2.625
0.796,-0.283,-0.429,-7.751,10.193,-3.052
0.812,-0.268,-0.435,-16.418,11.536,-4.272
0.831,-0.251,-0.451,-24.048,12.146,-6.042
0.847,-0.248,-0.463,-27.222,10.864,-8.789
0.86,-0.252,-0.469,-23.01,7.629,-12.268
0.871,-0.264,-0.47,-14.526,2.991,-15.442
0.877,-0.281,-0.461,-6.714,-1.77,-17.578
0.885,-0.305,-0.438,-0.488,-6.897,-17.639
0.896,-0.331,-0.414,3.113,-11.292,-15.747
0.904,-0.334,-0.392,2.747,-14.526,-11.719
0.916,-0.33,-0.368,2.319,-16.296,-6.653
0.927,-0.319,-0.351,3.357,-17.456,-1.709
0.932,-0.303,-0.332,6.653,-19.043,2.563
0.938,-0.29,-0.314,9.583,-19.714,7.629
0.944,-0.269,-0.3,11.169,-19.592,12.268
0.944,-0.248,-0.282,11.23,-18.982,16.418
0.938,-0.228,-0.269,9.46,-16.907,20.203
0.941,-0.202,-0.266,3.357,-13.672,22.827
0.935,-0.177,-0.265,-0.916,-11.414,23.621
0.936,-0.164,-0.263,1.404,-10.437,23.315
0.936,-0.149,-0.265,4.639,-9.033,21.729
0.934,-0.133,-0.265,5.676,-7.385,19.348
0.934,-0.128,-0.262,7.751,-5.493,16.052
0.935,-0.129,-0.263,12.268,-3.601,11.963
0.937,-0.131,-0.267,17.151,-1.953,7.751
0.938,-0.135,-0.275,19.775,-0.854,4.15
0.94,-0.154,-0.282,21.729,-0.61,1.282
0.944,-0.176,-0.292,23.987,-0.732,0.122
0.944,-0.19,-0.298,23.437,-0.916,0.366
0.939,-0.205,-0.302,20.081,-1.404,1.648
0.934,-0.219,-0.303,16.602,-2.075,4.028
0.932,-0.225,-0.304,12.146,-1.831,7.568
0.937,-0.217,-0.305,7.507,-1.465,11.23
0.94,-0.211,-0.301,5.249,-1.77,13.794
0.949,-0.213,-0.304,5.798,-2.258,16.235
0.953,-0.212,-0.306,5.066,-3.174,19.165
0.955,-0.214,-0.312,2.747,-4.211,22.705
0.956,-0.212,-0.32,-0.244,-5.554,26.855
0.953,-0.206,-0.328,-5.005,-6.958,31.128
0.949,-0.187,-0.334,-9.949,-9.155,35.217
0.944,-0.16,-0.331,-12.634,-11.475,39.063
0.948,-0.125,-0.319,-11.169,-14.038,40.771
0.947,-0.098,-0.301,-7.629,-16.296,40.039
0.947,-0.085,-0.282,-3.296,-17.334,37.964
0.951,-0.071,-0.269,-0.183,-16.907,35.339
0.952,-0.05,-0.256,0.916,-15.442,32.043
0.952,-0.035,-0.243,2.808,-13.062,27.954
0.954,-0.031,-0.23,5.798,-10.193,22.522
0.957,-0.044,-0.22,8.606,-6.836,16.724
0.956,-0.067,-0.223,10.254,-3.113,11.841
0.955,-0.083,-0.243,7.812,0.122,9.094
0.961,-0.082,-0.269,3.235,2.686,7.568
0.966,-0.085,-0.288,3.662,3.052,6.653
0.973,-0.094,-0.301,7.69,1.221,6.165
0.981,-0.089,-0.299,10.01,-1.465,6.47
0.984,-0.085,-0.286,11.169,-5.127,7.324
0.986,-0.083,-0.274,10.864,-7.69,8.484
0.983,-0.074,-0.264,6.836,-9.155,9.888
0.982,-0.065,-0.257,2.197,-9.766,10.681
0.974,-0.059,-0.254,0.427,-9.827,10.498
0.968,-0.056,-0.245,0.671,-9.705,9.399
0.965,-0.07,-0.236,1.526,-9.155,7.812
0.962,-0.102,-0.228,2.136,-8.423,6.836
0.962,-0.122,-0.229,0.549,-7.568,7.996
0.963,-0.116,-0.238,-3.54,-6.348,10.986
0.963,-0.098,-0.247,-7.629,-5.432,13.855
0.962,-0.081,-0.247,-9.583,-5.615,15.625
0.963,-0.065,-0.245,-9.338,-6.104,16.235
0.964,-0.039,-0.236,-8.728,-6.226,15.259
0.964,-0.028,-0.225,-6.592,-6.042,13
0.966,-0.022,-0.22,-3.845,-4.944,10.01
0.969,-0.026,-0.211,-0.488,-3.54,6.775
0.971,-0.033,-0.205,2.38,-2.563,3.906
0.974,-0.036,-0.209,3.479,-1.526,2.197
0.975,-0.036,-0.219,2.258,-0.977,1.282
0.974,-0.036,-0.226,0.183,-1.465,0.793
0.974,-0.038,-0.228,-0.977,-2.625,0.427
,,,,,
0.417,-1.113,-1.831,-41.626,0.427,-118.835
0.349,-1.379,-2.056,-43.091,-46.692,-81.909
0.221,-1.5,-2.219,-52.979,-108.948,-27.527
0.17,-1.496,-2.285,-30.151,-189.697,31.128
0.207,-1.649,-2.208,21.423,-288.513,93.14
-0.011,-1.486,-2.075,40.283,-398.926,169.189
-0.255,-1.202,-1.912,56.152,-515.442,238.525
-0.63,-0.78,-1.625,52.795,-632.263,286.865
-1.199,-0.298,-1.094,42.603,-748.352,306.763
-1.677,0.148,-0.177,48.218,-843.567,290.1
-2.049,0.502,1.349,29.419,-901.611,260.01
-1.877,0.577,3.94,-1.221,-897.095,239.746
-1.189,0.719,4,-36.194,-761.108,231.14
-0.041,1.104,4,-70.435,-411.072,215.698
-0.049,1.78,4,-21.851,25.208,158.875
-0.266,2.34,4,127.197,294.189,88.867
-0.029,2.664,3.392,223.145,380.432,52.551
0.227,2.342,2.503,217.224,375.122,-23.926
0.425,1.813,1.822,141.602,353.333,-114.38
0.477,1.224,1.268,41.687,347.961,-172.607
0.392,0.645,0.817,-24.963,347.046,-203.979
0.431,0.201,0.541,-75.745,336.914,-216.309
0.28,-0.214,0.367,-116.516,319.092,-215.088
0.283,-0.561,0.245,-138.184,299.744,-203.491
0.392,-0.872,0.183,-122.742,282.349,-182.434
0.424,-0.96,0.068,-107.727,269.592,-149.353
0.394,-0.945,-0.074,-93.262,262.695,-117.188
0.412,-0.83,-0.273,-87.524,259.094,-89.294
0.446,-0.699,-0.441,-91.248,246.46,-64.88
0.479,-0.615,-0.579,-90.271,220.764,-45.044
0.515,-0.565,-0.627,-80.627,187.256,-30.762
0.561,-0.539,-0.625,-64.514,152.1,-19.836
0.605,-0.518,-0.604,-53.65,120.239,-9.277
0.645,-0.487,-0.562,-50.598,91.553,1.282
0.687,-0.441,-0.491,-42.236,63.904,10.742
0.739,-0.409,-0.38,-27.039,38.452,18.982
0.794,-0.403,-0.256,-6.653,18.25,24.719
0.831,-0.392,-0.146,7.08,5.615,30.029
0.859,-0.356,-0.07,9.033,1.221,35.828
0.895,-0.3,-0.033,4.639,2.563,40.039
0.917,-0.228,-0.032,-2.625,6.47,41.809
0.941,-0.162,-0.056,-7.996,9.705,39.978
0.967,-0.11,-0.08,-7.874,10.498,34.729
0.998,-0.088,-0.088,-0.183,8.24,27.344
1.016,-0.101,-0.08,13.672,4.578,18.616
1.022,-0.11,-0.066,25.208,1.648,10.315
1.035,-0.118,-0.056,26.672,0.244,5.615
1.04,-0.127,-0.035,24.719,0.305,1.465
1.04,-0.143,-0.011,21.606,2.136,-0.61
1.036,-0.176,0.011,22.034,4.639,-1.526
1.026,-0.22,0.016,23.743,8.545,-0.793
1.018,-0.239,0,20.691,14.282,2.563
1.007,-0.23,-0.035,12.451,20.325,8.667
0.996,-0.2,-0.081,0.244,25.635,15.747
0.99,-0.154,-0.124,-7.507,28.931,20.813
0.984,-0.123,-0.159,-5.798,28.625,22.644
0.982,-0.105,-0.187,1.709,26.367,22.156
0.981,-0.087,-0.206,11.169,22.949,21.057
0.982,-0.08,-0.21,18.982,17.822,19.348
0.98,-0.083,-0.201,25.146,12.085,18.005
0.975,-0.083,-0.191,29.358,7.385,17.517
0.962,-0.077,-0.192,30.64,4.211,17.212
0.954,-0.072,-0.17,30.334,2.502,16.907
0.947,-0.065,-0.158,25.085,2.319,16.907
0.939,-0.065,-0.152,16.785,3.357,16.541
0.934,-0.065,-0.147,10.925,4.761,15.564
0.931,-0.075,-0.13,7.324,6.348,14.648
0.937,-0.085,-0.129,2.991,9.583,13.611
0.946,-0.089,-0.137,1.038,12.573,12.39
0.952,-0.093,-0.14,1.282,14.465,11.536
0.964,-0.09,-0.151,3.845,15.564,10.742
0.974,-0.082,-0.162,7.263,15.93,9.705
0.977,-0.079,-0.177,8.728,15.991,8.911
0.975,-0.067,-0.192,8.179,16.296,8.606
0.976,-0.052,-0.206,8.057,16.541,7.08
0.969,-0.052,-0.217,10.315,16.113,4.517
0.966,-0.057,-0.228,13.245,15.259,1.831
0.962,-0.065,-0.239,13.428,14.282,-0.244
0.96,-0.079,-0.24,15.32,12.329,-2.197
0.966,-0.102,-0.234,18.25,9.827,-3.54
0.964,-0.129,-0.23,19.226,7.751,-3.296
0.964,-0.142,-0.235,17.029,6.592,-1.526
0.971,-0.133,-0.24,11.414,5.859,0.671
0.974,-0.126,-0.235,7.507,4.333,3.174
0.977,-0.119,-0.227,7.568,2.502,5.31
0.979,-0.101,-0.22,8.057,1.343,6.714
0.978,-0.086,-0.214,7.141,0.671,7.141
0.979,-0.079,-0.208,6.958,-0.061,7.08
0.979,-0.08,-0.204,6.897,-0.549,6.714
0.974,-0.076,-0.205,5.859,-1.16,6.47
0.97,-0.064,-0.2,3.906,-2.014,6.592
0.968,-0.052,-0.192,3.235,-2.869,5.981
0.967,-0.054,-0.176,4.456,-3.784,4.822
0.969,-0.068,-0.16,7.568,-4.272,3.601
0.971,-0.07,-0.146,8.972,-3.479,3.174
0.974,-0.073,-0.13,8.301,-2.319,3.052
0.982,-0.083,-0.12,7.812,-0.671,3.357
0.982,-0.081,-0.124,7.08,1.282,4.333
0.982,-0.062,-0.134,5.31,3.906,4.822
0.984,-0.045,-0.142,5.432,5.92,4.456
0.986,-0.033,-0.151,7.019,7.385,2.93
0.989,-0.026,-0.157,8.85,7.935,0.854
0.988,-0.029,-0.159,10.742,8.179,-0.61
0.988,-0.029,-0.158,12.39,8.484,-1.831
0.988,-0.025,-0.154,12.146,9.033,-3.296
0.984,-0.024,-0.155,10.254,9.827,-4.639
0.987,-0.03,-0.16,8.362,10.559,-6.165
0.984,-0.051,-0.173,6.836,10.925,-7.263
0.983,-0.067,-0.185,5.066,10.559,-7.324
0.983,-0.075,-0.192,2.808,9.766,-6.226
0.986,-0.082,-0.197,1.343,8.423,-4.7
0.983,-0.089,-0.204,1.16,7.324,-2.808
0.977,-0.089,-0.215,0.671,6.287,-0.732
0.973,-0.069,-0.221,-0.854,5.249,0.793
0.972,-0.044,-0.216,-0.977,3.906,1.465
0.969,-0.03,-0.212,2.136,3.296,0.671
0.969,-0.03,-0.205,5.554,2.869,-1.221
0.967,-0.042,-0.197,7.446,2.869,-3.723
0.968,-0.055,-0.191,7.446,3.174,-5.615
,,,,,
0.247,-1.351,-1.815,-115.54,-19.653,-53.955
0.21,-1.739,-2.231,-112.793,-74.951,-2.747
0.164,-1.894,-2.416,-63.66,-160.95,66.895
-0.009,-1.775,-2.32,34.79,-276.489,145.691
-0.282,-1.459,-2.103,171.326,-412.476,209.839
-0.589,-1.04,-1.845,301.086,-564.148,245.117
-1.097,-0.518,-1.396,358.398,-724.548,253.906
-1.626,0.149,-0.694,319.885,-874.512,240.417
-1.791,0.781,0.39,200.562,-979.431,196.838
-1.729,1.114,1.86,47.668,-1016.541,130.676
-1.853,1.677,4,-30.029,-974.243,68.42
-1.377,0.926,4,33.997,-797.363,-26.672
0.422,-0.262,4,51.697,-415.527,-117.371
0.424,-0.251,4,21.729,4.333,-120.056
0.032,0.196,4,134.583,284.302,-38.513
0.027,0.917,3.189,253.357,385.254,34.485
0.286,1.276,2.271,259.521,385.742,25.574
0.483,1.091,1.479,166.748,365.54,-25.696
0.558,0.582,0.868,73.303,345.886,-67.2
0.558,0.089,0.519,14.282,323.486,-87.28
0.6,-0.207,0.291,-16.907,289.062,-86.67
0.638,-0.468,0.248,-28.503,252.197,-74.585
0.639,-0.567,0.127,-45.715,226.868,-57.922
0.626,-0.673,0.184,-23.254,195.251,-42.725
0.645,-0.769,0.223,16.174,175.72,-27.222
0.644,-0.796,0.199,33.264,175.171,-9.46
0.624,-0.755,0.12,27.832,184.204,7.446
0.588,-0.679,0.005,14.404,189.514,24.597
0.581,-0.573,-0.106,-7.202,188.965,41.138
0.587,-0.451,-0.186,-31.677,183.96,52.307
0.579,-0.377,-0.257,-51.208,174.316,55.847
0.59,-0.3,-0.276,-63.538,160.278,55.298
0.651,-0.225,-0.292,-58.167,142.029,50.171
0.679,-0.217,-0.294,-51.086,122.559,43.884
0.711,-0.186,-0.247,-32.043,101.868,37.17
0.754,-0.187,-0.187,-11.658,82.947,30.212
0.788,-0.21,-0.116,9.094,67.2,24.658
0.821,-0.242,-0.046,22.339,57.251,21.301
0.845,-0.27,-0.003,24.17,52.795,21.973
0.867,-0.258,0.01,16.541,52.002,25.818
0.888,-0.207,-0.011,4.333,52.734,29.358
0.91,-0.145,-0.052,-4.639,52.49,30.09
0.928,-0.102,-0.089,-7.141,49.377,26.978
0.941,-0.089,-0.112,-5.127,43.701,21.301
0.961,-0.087,-0.12,-0.305,36.438,14.709
0.969,-0.112,-0.113,5.676,29.907,7.568
0.98,-0.133,-0.101,8.118,25.452,2.625
0.987,-0.162,-0.084,8.789,22.644,-0.061
0.991,-0.191,-0.054,5.859,21.606,-1.404
0.994,-0.227,-0.017,2.197,22.522,-1.526
1.002,-0.255,-0.003,-0.671,25.879,-0.244
1.002,-0.26,-0.007,-5.188,30.212,2.991
0.999,-0.25,-0.039,-7.446,33.752,7.324
1.005,-0.225,-0.071,-6.47,36.316,11.047
1.001,-0.192,-0.104,-4.15,37.048,13.733
1.001,-0.165,-0.124,-0.732,35.767,15.625
1.002,-0.151,-0.135,3.723,33.63,16.113
0.999,-0.142,-0.147,5.615,31.616,16.113
0.991,-0.133,-0.154,5.188,29.236,16.235
0.984,-0.126,-0.161,3.906,27.039,15.747
0.977,-0.109,-0.166,2.197,24.231,14.832
0.967,-0.111,-0.146,2.441,20.874,12.878
0.959,-0.145,-0.122,5.981,17.883,11.292
0.956,-0.158,-0.111,7.141,17.517,11.78
0.953,-0.157,-0.11,4.578,19.409,13.184
0.946,-0.149,-0.112,1.526,21.973,15.381
0.948,-0.129,-0.126,-0.977,23.743,17.456
0.943,-0.105,-0.14,-1.953,24.902,18.433
0.941,-0.085,-0.155,-1.038,25.818,18.372
0.945,-0.069,-0.171,0.183,26.184,17.273
0.949,-0.057,-0.186,0.244,26.123,15.198
0.945,-0.061,-0.19,2.441,24.536,13
0.949,-0.074,-0.193,5.981,22.4,10.925
0.951,-0.081,-0.201,4.944,21.301,9.583
0.951,-0.084,-0.215,1.648,20.264,9.216
0.953,-0.08,-0.223,-0.427,18.921,9.277
0.956,-0.083,-0.223,1.587,17.029,8.423
0.959,-0.093,-0.22,6.165,14.771,7.324
0.963,-0.093,-0.215,8.972,13.367,6.531
0.962,-0.094,-0.199,11.047,12.146,6.104
0.966,-0.113,-0.179,13.672,11.841,5.676
0.968,-0.131,-0.169,13.184,13.55,6.775
0.973,-0.123,-0.175,7.324,15.93,9.155
0.975,-0.109,-0.189,2.075,17.822,11.475
0.979,-0.096,-0.205,-0.061,18.127,13.123
0.981,-0.084,-0.216,-0.732,17.456,13.977
0.982,-0.076,-0.219,-1.16,15.808,14.709
0.983,-0.061,-0.219,0.305,13.916,14.954
0.981,-0.051,-0.216,1.343,12.756,14.465
0.977,-0.045,-0.214,1.831,12.085,12.939
0.973,-0.039,-0.215,1.709,11.963,10.864
0.972,-0.032,-0.213,2.197,12.024,8.423
0.968,-0.048,-0.205,3.601,12.512,5.554
0.958,-0.078,-0.19,5.31,14.16,3.967
0.953,-0.092,-0.18,4.517,17.395,3.601
0.954,-0.094,-0.185,3.357,21.423,3.967
0.954,-0.087,-0.198,2.197,25.269,4.395
0.954,-0.076,-0.22,2.136,28.137,4.761
0.956,-0.066,-0.241,2.319,29.602,4.7
0.96,-0.06,-0.266,3.235,29.358,4.028
0.959,-0.06,-0.286,2.93,27.527,3.357
0.957,-0.069,-0.295,2.319,24.841,3.113
0.958,-0.077,-0.298,2.625,21.973,3.296
0.954,-0.079,-0.304,2.808,19.287,3.967
0.948,-0.078,-0.307,1.831,17.151,4.944
0.943,-0.075,-0.309,1.709,15.625,5.676
0.943,-0.074,-0.308,2.258,14.16,6.104
0.942,-0.077,-0.296,4.15,12.573,6.47
0.939,-0.082,-0.288,5.127,11.841,7.08
0.938,-0.073,-0.289,1.831,11.902,8.362
0.937,-0.06,-0.296,-2.441,11.841,9.094
0.942,-0.047,-0.305,-3.418,11.108,9.033
0.942,-0.047,-0.312,-2.869,9.521,8.057
0.943,-0.046,-0.318,-2.686,7.935,7.202
0.941,-0.039,-0.318,-2.747,6.592,6.348
0.938,-0.037,-0.312,-3.174,5.432,5.432
0.931,-0.037,-0.305,-4.395,4.761,4.028
0.925,-0.037,-0.305,-4.7,5.005,2.502
0.922,-0.035,-0.3,-4.395,5.859,0.732
,,,,,
-0.233,-1.454,-2.404,-77.637,139.16,-200.684
-0.11,-1.714,-2.954,-91.003,67.444,-153.381
-0.053,-1.816,-3.172,-60.547,-49.194,-81.36
-0.072,-1.737,-3.176,41.626,-195.129,4.211
-0.203,-1.548,-2.937,185.547,-356.812,82.458
-0.419,-1.252,-2.533,282.227,-521.179,141.968
-0.691,-0.962,-2.107,316.772,-685.303,174.744
-1.066,-0.65,-1.53,286.865,-842.529,190.857
-1.659,-0.484,-0.72,171.875,-977.722,199.951
-2.005,-0.302,0.582,-58.044,-1056.152,224.06
-2.174,-0.466,2.913,-324.951,-1053.772,278.931
-1.48,-0.387,4,-545.288,-935.486,377.625
-0.154,0.699,4,-562.256,-642.822,438.782
0.26,2.383,4,-345.276,-209.717,400.513
0.479,3.826,4,-4.517,177.429,275.085
0.462,3.989,3.477,229.431,375.122,99.304
0.448,2.946,2.417,326.416,400.696,-72.632
0.578,2.001,1.768,306.641,369.08,-179.565
0.6,1.375,1.297,190.186,349.548,-223.511
0.539,0.811,0.808,69.641,348.511,-230.164
0.452,0.407,0.324,-21.545,348.45,-217.041
0.368,0.072,-0.032,-83.313,323.608,-200.195
0.39,-0.209,-0.218,-108.215,282.288,-185.364
0.362,-0.663,-0.177,-91.858,238.037,-166.382
0.357,-0.888,-0.407,-64.636,208.557,-138.367
0.374,-0.949,-0.487,-42.847,187.622,-105.347
0.348,-0.893,-0.47,-12.634,172.852,-80.688
0.453,-0.789,-0.482,-0.305,159.973,-55.786
0.46,-0.73,-0.54,-0.061,142.029,-26.855
0.47,-0.636,-0.622,-14.404,126.831,1.77
0.513,-0.511,-0.701,-36.804,112.427,24.353
0.554,-0.4,-0.77,-62.866,95.642,38.33
0.617,-0.303,-0.8,-81.97,74.158,44.25
0.665,-0.23,-0.773,-87.524,47.363,43.213
0.707,-0.184,-0.68,-73.669,18.677,36.926
0.754,-0.166,-0.552,-45.105,-6.775,27.344
0.806,-0.145,-0.417,-14.221,-26.306,16.052
0.841,-0.126,-0.277,10.132,-39.856,4.028
0.876,-0.114,-0.137,32.959,-47.424,-6.958
0.921,-0.137,-0.013,58.838,-50.11,-18.005
0.974,-0.212,0.05,75.134,-47.424,-25.574
1.026,-0.245,0.094,68.909,-40.771,-25.269
1.054,-0.239,0.089,47.363,-31.372,-17.883
1.083,-0.237,0.082,24.353,-21.179,-8.423
1.09,-0.207,0.057,3.174,-10.681,0.122
1.093,-0.143,0.026,-13.977,-2.197,6.958
1.096,-0.091,-0.009,-18.799,3.235,8.423
1.093,-0.063,-0.044,-14.771,7.08,5.554
1.083,-0.056,-0.065,-8.118,9.766,1.465
1.073,-0.065,-0.078,-3.113,11.902,-2.258
1.065,-0.078,-0.093,0.183,13.733,-5.92
1.056,-0.099,-0.114,1.16,14.587,-7.996
1.042,-0.111,-0.134,1.221,14.587,-8.118
1.027,-0.125,-0.141,2.563,13.916,-7.202
1.016,-0.134,-0.148,2.014,13.733,-4.639
1.004,-0.141,-0.168,-2.258,13.977,-1.221
0.991,-0.144,-0.185,-6.958,14.404,2.747
0.973,-0.139,-0.197,-11.23,14.343,7.568
0.953,-0.126,-0.198,-17.639,14.893,12.573
0.945,-0.096,-0.195,-22.949,16.418,16.357
0.937,-0.071,-0.198,-22.156,17.761,16.785
0.926,-0.056,-0.207,-19.775,18.86,15.076
0.923,-0.047,-0.213,-16.479,18.982,12.085
0.922,-0.048,-0.226,-12.512,18.799,8.179
0.926,-0.047,-0.241,-9.338,18.555,4.028
0.925,-0.057,-0.254,-6.714,17.883,0.305
0.931,-0.064,-0.255,-4.028,16.541,-2.441
0.935,-0.086,-0.247,-1.221,14.526,-4.883
0.935,-0.131,-0.244,-0.122,12.756,-5.798
0.937,-0.163,-0.242,-3.174,12.512,-3.906
0.934,-0.179,-0.23,-8.667,12.39,-0.305
0.936,-0.183,-0.23,-14.771,12.695,4.211
0.94,-0.174,-0.242,-20.996,13.733,9.094
0.943,-0.147,-0.254,-25.879,14.954,12.39
0.945,-0.118,-0.274,-27.466,15.32,13.916
0.942,-0.101,-0.292,-24.475,14.526,12.695
0.948,-0.097,-0.301,-19.409,13,9.46
0.95,-0.104,-0.299,-14.099,11.292,5.432
0.952,-0.121,-0.293,-8.057,9.949,1.709
0.954,-0.144,-0.28,-0.977,8.728,-0.793
0.96,-0.168,-0.27,5.188,7.69,-2.136
0.96,-0.179,-0.266,6.287,7.324,-1.465
0.964,-0.181,-0.267,4.944,7.629,-0.122
0.967,-0.176,-0.273,2.747,8.057,1.16
0.965,-0.171,-0.28,-0.61,8.362,3.418
0.965,-0.161,-0.286,-4.15,8.362,5.554
0.965,-0.142,-0.288,-6.348,7.935,6.47
0.963,-0.122,-0.281,-6.531,7.324,6.104
0.964,-0.106,-0.274,-5.005,6.653,4.517
0.966,-0.093,-0.266,-2.258,6.226,1.709
0.967,-0.087,-0.258,3.052,6.409,-1.709
0.964,-0.087,-0.262,9.277,6.775,-6.165
0.965,-0.073,-0.253,15.869,8.057,-11.292
0.96,-0.093,-0.245,24.963,9.033,-17.151
0.956,-0.124,-0.241,31.921,10.376,-21.118
0.95,-0.165,-0.235,31.372,13.306,-21.729
0.947,-0.182,-0.228,22.461,17.029,-19.104
0.945,-0.191,-0.233,11.597,20.813,-15.137
0.943,-0.189,-0.239,2.075,23.682,-10.498
0.947,-0.18,-0.234,-4.456,25.696,-6.042
0.946,-0.184,-0.239,-10.193,28.687,-2.075
0.935,-0.171,-0.255,-19.043,31.494,1.343
0.923,-0.161,-0.276,-25.208,33.386,2.869
0.904,-0.156,-0.304,-28.748,35.095,3.357
0.883,-0.232,-0.342,-36.926,37.17,4.639
0.919,-0.154,-0.338,-60.791,39.246,10.01
0.934,-0.074,-0.367,-71.167,39.124,11.963
0.912,-0.142,-0.38,-51.636,34.058,5.249
0.922,-0.134,-0.33,-40.527,29.785,1.282
0.936,-0.089,-0.345,-40.1,28.748,-0.061
0.924,-0.135,-0.36,-19.714,25.024,-6.226
0.922,-0.172,-0.341,-3.662,21.423,-10.01
0.92,-0.191,-0.342,-0.549,19.897,-10.254
0.919,-0.196,-0.363,-3.418,19.531,-8.362
0.925,-0.181,-0.393,-4.7,18.799,-6.348
0.933,-0.126,-0.413,0.366,15.137,-6.287
0.929,-0.179,-0.378,18.799,7.935,-10.193
0.925,-0.223,-0.357,24.475,4.211,-10.437
0.923,-0.219,-0.367,16.113,3.723,-6.287
,,,,,
-0.003,-1.153,-1.962,46.631,40.649,-146.667
0.017,-1.52,-2.392,103.027,-17.7,-122.559
0.003,-1.743,-2.695,178.406,-107.849,-68.176
-0.086,-1.72,-2.809,241.516,-222.961,11.78
-0.209,-1.512,-2.743,284.546,-358.398,93.567
-0.401,-1.128,-2.435,295.349,-513.672,156.677
-0.666,-0.714,-1.895,265.93,-674.438,194.763
-0.992,-0.287,-1.03,123.169,-812.744,223.083
-1.302,0.031,0.205,-62.439,-906.799,249.207
-1.547,0.2,1.833,-193.542,-940.796,266.052
-1.14,0.613,3.913,-265.503,-886.23,277.832
-0.33,1.247,4,-251.526,-721.863,265.137
0.666,1.62,4,-172.852,-413.818,217.285
0.847,1.878,4,-34.973,-32.288,132.019
0.627,2.224,4,142.883,245.361,37.842
0.58,2.195,2.943,254.272,356.567,-31.616
0.652,1.793,2.037,261.353,364.38,-80.994
0.707,1.253,1.408,194.031,343.628,-123.291
0.729,0.697,0.856,100.83,332.458,-148.01
0.692,0.307,0.407,18.616,330.688,-144.653
0.651,0.044,0.029,-44.128,319.702,-125.793
0.546,-0.112,-0.244,-94.604,295.166,-111.267
0.571,-0.236,-0.419,-122.192,263.428,-100.464
0.503,-0.381,-0.438,-103.333,225.403,-98.145
0.488,-0.477,-0.485,-48.035,185.486,-93.872
0.526,-0.636,-0.43,-5.188,156.189,-85.327
0.527,-0.726,-0.406,12.024,135.193,-65.308
0.544,-0.73,-0.413,2.197,123.169,-34.607
0.542,-0.658,-0.458,-25.208,116.821,-4.028
0.555,-0.512,-0.514,-58.777,111.084,20.02
0.572,-0.377,-0.569,-82.092,100.403,33.02
0.615,-0.279,-0.585,-92.896,85.205,36.011
0.654,-0.228,-0.581,-92.957,68.481,31.616
0.702,-0.206,-0.547,-79.895,50.537,22.156
0.752,-0.209,-0.486,-60.608,32.593,11.841
0.793,-0.235,-0.389,-40.283,16.663,4.456
0.831,-0.265,-0.279,-24.597,4.578,1.099
0.867,-0.276,-0.177,-15.259,-1.465,1.587
0.905,-0.274,-0.107,-12.695,-2.869,4.272
0.938,-0.256,-0.081,-15.686,-1.282,8.606
0.965,-0.228,-0.092,-23.132,1.465,12.939
0.989,-0.183,-0.117,-30.579,4.578,16.052
1.009,-0.13,-0.132,-33.447,6.47,16.235
1.029,-0.094,-0.143,-30.701,6.409,12.939
1.041,-0.08,-0.153,-26.245,5.676,7.385
1.048,-0.08,-0.162,-22.156,5.188,1.343
1.05,-0.08,-0.156,-17.517,4.272,-4.211
1.045,-0.095,-0.135,-10.437,3.662,-9.644
1.044,-0.125,-0.117,-3.845,4.272,-13.672
1.037,-0.158,-0.096,-3.418,7.019,-14.771
1.029,-0.179,-0.083,-4.822,10.742,-13.123
1.018,-0.194,-0.088,-6.47,14.771,-9.949
1.003,-0.199,-0.105,-9.583,19.409,-5.615
0.997,-0.191,-0.125,-11.719,25.085,-1.16
0.987,-0.176,-0.149,-12.512,30.151,1.221
0.975,-0.159,-0.179,-12.329,34.18,2.38
0.971,-0.146,-0.217,-11.23,36.804,2.258
0.966,-0.136,-0.255,-7.385,37.109,1.038
0.961,-0.139,-0.274,-0.977,35.339,-0.427
0.96,-0.141,-0.285,5.493,32.898,-1.282
0.955,-0.137,-0.289,9.277,29.297,-1.953
0.951,-0.142,-0.289,9.521,25.574,-2.136
0.943,-0.146,-0.296,5.127,23.01,-1.526
0.933,-0.138,-0.303,-2.563,21.057,-0.916
0.93,-0.132,-0.304,-7.751,19.226,-0.916
0.932,-0.138,-0.302,-7.507,17.334,-1.465
0.929,-0.156,-0.292,-7.751,14.832,-2.014
0.933,-0.173,-0.274,-10.864,12.268,-1.282
0.937,-0.177,-0.255,-15.259,10.132,0.183
0.941,-0.178,-0.242,-18.555,8.972,1.77
0.944,-0.169,-0.238,-20.447,8.667,3.113
0.938,-0.16,-0.237,-19.836,9.46,3.357
0.932,-0.152,-0.242,-16.907,10.742,2.441
0.929,-0.149,-0.251,-13.672,12.634,1.221
0.925,-0.143,-0.27,-12.268,14.893,-0.183
0.921,-0.143,-0.287,-9.277,15.93,-2.563
0.919,-0.159,-0.297,-2.075,15.503,-5.737
0.92,-0.179,-0.307,4.761,15.442,-7.935
0.923,-0.193,-0.305,8.118,15.32,-8.972
0.922,-0.219,-0.295,7.812,15.808,-8.423
0.917,-0.233,-0.292,1.709,18.616,-5.737
0.923,-0.222,-0.303,-5.981,22.949,-2.93
0.916,-0.207,-0.312,-9.888,26.062,-1.77
0.914,-0.198,-0.33,-7.996,27.832,-2.319
0.911,-0.198,-0.351,-3.235,29.48,-3.967
0.904,-0.204,-0.368,3.418,30.151,-6.104
0.903,-0.214,-0.383,10.193,29.236,-7.629
0.904,-0.228,-0.395,13.916,27.283,-8.179
0.901,-0.242,-0.403,13.062,25.574,-7.141
0.896,-0.249,-0.407,10.742,24.048,-4.761
0.897,-0.248,-0.408,8.911,22.034,-2.197
0.902,-0.242,-0.405,7.751,19.897,0
0.906,-0.23,-0.397,6.714,17.456,2.319
0.913,-0.227,-0.384,6.104,15.137,4.883
0.912,-0.227,-0.378,3.357,13.672,7.629
0.909,-0.219,-0.376,-2.136,13.184,11.047
0.907,-0.201,-0.368,-7.935,12.756,14.221
0.906,-0.174,-0.361,-11.536,12.39,16.052
0.909,-0.16,-0.355,-10.742,11.902,15.686
0.906,-0.156,-0.349,-6.531,11.353,14.221
0.91,-0.148,-0.347,-3.418,11.108,12.695
0.911,-0.147,-0.347,-1.587,11.292,11.047
0.907,-0.138,-0.351,-1.709,12.024,10.315
0.91,-0.125,-0.357,-3.906,12.024,9.338
0.912,-0.116,-0.366,-6.653,11.658,7.629
0.911,-0.112,-0.369,-7.874,11.108,6.104
0.907,-0.114,-0.366,-7.141,10.193,4.517
0.904,-0.13,-0.357,-7.446,9.949,2.991
0.898,-0.144,-0.345,-10.925,11.23,2.38
0.898,-0.147,-0.342,-14.526,13,2.136
0.896,-0.158,-0.343,-14.648,14.709,1.648
0.895,-0.163,-0.353,-14.282,16.785,1.282
0.893,-0.16,-0.361,-12.573,18.188,0.549
0.893,-0.159,-0.367,-8.545,18.677,0.061
0.894,-0.161,-0.377,-4.028,18.982,-0.61
0.891,-0.159,-0.386,-0.732,19.104,-1.221
0.889,-0.155,-0.395,2.075,19.348,-1.831
0.89,-0.153,-0.403,3.845,19.47,-2.93
0.888,-0.144,-0.405,4.822,19.348,-4.333
,,,,,
0.023,-1.273,-1.767,-19.714,-110.291,13.611
-0.028,-1.426,-2.031,8.484,-176.575,62.805
-0.146,-1.421,-2.204,36.682,-262.085,118.042
-0.243,-1.254,-2.269,64.819,-365.723,174.866
-0.326,-1.011,-2.2,108.704,-487.244,222.9
-0.637,-0.673,-1.932,166.748,-624.268,249.146
-1.073,-0.3,-1.567,199.768,-783.936,256.897
-1.632,0.162,-0.909,190.674,-947.815,239.868
-2.296,0.639,0.183,259.521,-1122.742,187.317
-2.205,-1.107,3.658,272.522,-1273.071,97.473
-1.802,-1.99,4,-457.886,-1224.915,188.293
-0.689,-1.331,4,-903.32,-912.72,354.065
-0.478,1.34,4,-885.193,-425.354,456.36
-0.173,3.999,4,-473.328,60.791,431.946
0.084,4,4,145.813,357.849,236.145
0.316,3.609,3.312,684.387,460.571,-59.204
0.243,2.058,2.319,716.37,505.859,-244.446
0.223,0.953,1.48,490.051,504.944,-269.348
0.334,0.669,0.811,251.282,481.079,-224.365
0.338,0.412,-0.039,74.219,438.354,-177.49
0.341,-0.004,-0.581,-34.729,352.051,-149.719
0.461,-0.423,-0.684,-98.022,254.7,-128.113
0.524,-0.702,-0.505,-117.371,175.598,-97.717
0.533,-0.866,-0.24,-94.299,121.277,-56.03
0.586,-0.937,-0.101,-48.34,92.285,-15.747
0.649,-0.875,-0.094,-25.879,92.285,16.846
0.661,-0.638,-0.234,-38.452,107.422,44.006
0.677,-0.302,-0.377,-57.251,118.53,59.753
0.71,-0.038,-0.428,-52.429,117.188,55.908
0.75,0.01,-0.407,-22.522,105.164,34.729
0.768,-0.069,-0.327,3.662,89.966,11.658
0.785,-0.157,-0.22,5.676,78.369,-0.977
0.808,-0.2,-0.091,-14.282,71.35,-3.967
0.84,-0.218,-0.03,-40.1,66.162,-1.282
0.833,-0.229,0.001,-68.298,62.744,3.235
0.81,-0.193,0.001,-87.463,61.218,7.996
0.863,-0.108,0.004,-84.717,58.777,10.437
0.909,-0.043,0.029,-60.364,52.429,5.554
0.963,-0.017,0.057,-22.705,45.471,-4.333
1.007,-0.03,0.078,11.719,39.978,-15.076
1.038,-0.072,0.101,33.081,36.438,-21.79
1.071,-0.115,0.109,32.227,35.95,-21.484
1.091,-0.122,0.098,13.184,37.842,-16.357
1.098,-0.117,0.076,-10.254,40.405,-10.925
1.099,-0.112,0.056,-30.334,43.274,-5.981
1.088,-0.119,0.038,-43.213,46.082,-3.723
1.066,-0.125,0.018,-50.354,49.255,-3.357
1.053,-0.119,-0.009,-53.772,53.65,-4.272
1.023,-0.129,-0.042,-57.861,58.35,-7.019
1.018,-0.121,-0.072,-49.194,61.218,-11.597
1.006,-0.138,-0.095,-34.729,63.66,-18.005
0.998,-0.156,-0.114,-20.63,65.125,-22.888
0.987,-0.173,-0.137,-9.521,65.918,-25.818
0.985,-0.179,-0.161,-7.507,66.04,-25.879
0.977,-0.193,-0.19,-10.132,65.247,-23.499
0.962,-0.204,-0.222,-15.808,63.11,-19.714
0.946,-0.208,-0.243,-25.452,60.364,-14.404
0.93,-0.209,-0.264,-31.799,57.434,-9.399
0.916,-0.211,-0.278,-30.029,53.589,-5.798
0.91,-0.231,-0.277,-25.024,49.5,-3.906
0.897,-0.261,-0.264,-19.653,45.898,-1.892
0.894,-0.276,-0.244,-19.897,44.067,0.977
0.9,-0.256,-0.227,-22.034,44.312,4.272
0.908,-0.233,-0.226,-20.813,44.312,6.409
0.913,-0.214,-0.247,-20.142,44.128,7.263
0.91,-0.201,-0.272,-20.752,43.518,7.019
0.908,-0.189,-0.289,-19.409,41.138,6.348
0.907,-0.187,-0.297,-17.517,38.208,5.249
0.9,-0.196,-0.301,-12.146,35.217,3.357
0.899,-0.21,-0.288,-3.174,32.227,1.953
0.896,-0.224,-0.283,1.282,30.762,2.38
0.894,-0.213,-0.292,-2.686,31.494,4.272
0.897,-0.195,-0.303,-8.484,32.288,5.432
0.9,-0.187,-0.318,-6.775,31.616,4.883
0.905,-0.183,-0.334,0.305,29.846,3.235
0.911,-0.181,-0.344,7.263,27.344,1.16
0.916,-0.181,-0.348,13.184,24.414,-0.488
0.923,-0.181,-0.346,18.372,21.606,-1.77
0.924,-0.193,-0.338,19.165,20.203,-2.808
0.915,-0.198,-0.324,13.428,19.836,-2.686
0.91,-0.198,-0.319,6.531,20.874,-1.831
0.909,-0.189,-0.322,-0.427,22.827,-1.465
0.906,-0.19,-0.322,-5.249,24.78,-1.709
0.907,-0.198,-0.316,-4.822,25.574,-1.465
0.915,-0.21,-0.313,-2.502,26.001,-0.977
0.915,-0.22,-0.317,-2.258,25.574,0.061
0.917,-0.213,-0.329,-5.127,25.33,2.197
0.917,-0.195,-0.34,-8.179,24.719,4.333
0.914,-0.184,-0.349,-7.202,23.254,4.944
0.913,-0.176,-0.36,-2.38,21.118,4.15
0.913,-0.173,-0.365,4.517,18.311,2.014
0.907,-0.172,-0.365,10.437,15.32,0.366
0.908,-0.171,-0.365,14.221,13.184,-0.671
0.908,-0.175,-0.363,14.404,12.39,-1.587
0.904,-0.185,-0.353,10.315,11.841,-1.709
0.904,-0.189,-0.341,5.31,11.719,-0.977
0.905,-0.19,-0.333,2.38,12.024,-0.305
0.903,-0.207,-0.317,1.343,12.573,0.244
0.902,-0.221,-0.312,-0.122,13.306,1.77
0.898,-0.213,-0.318,-5.249,15.381,4.211
0.898,-0.198,-0.328,-9.033,17.517,5.981
0.896,-0.189,-0.34,-5.737,18.372,5.493
0.896,-0.187,-0.352,1.526,18.86,4.272
0.896,-0.184,-0.361,7.202,19.104,2.991
0.896,-0.182,-0.364,8.606,19.714,2.136
0.893,-0.174,-0.366,5.249,21.179,2.319
0.886,-0.156,-0.374,-1.404,22.766,2.441
0.884,-0.143,-0.383,-5.188,23.621,1.404
0.884,-0.149,-0.389,-3.662,23.376,-0.061
0.883,-0.162,-0.395,-1.831,23.071,-1.16
0.884,-0.165,-0.399,-1.587,22.766,-2.014
0.884,-0.168,-0.397,1.16,21.667,-2.136
0.884,-0.172,-0.403,2.197,20.813,-1.709
0.887,-0.166,-0.402,1.953,20.081,-1.16
0.89,-0.166,-0.398,2.869,18.799,-0.977
0.888,-0.17,-0.398,2.075,18.433,-0.61
0.879,-0.167,-0.402,-2.991,19.226,0.061
0.875,-0.154,-0.403,-9.277,20.935,0.549
0.87,-0.151,-0.407,-12.451,22.217,0.122
,,,,,
-0.217,-1.408,-1.783,-87.708,32.043,-94.177
-0.238,-1.72,-2.225,-87.952,-17.761,-41.016
-0.225,-1.972,-2.548,-50.842,-94.055,28.87
-0.223,-2.007,-2.703,14.038,-196.35,114.807
-0.279,-1.863,-2.736,95.459,-317.932,200.562
-0.432,-1.533,-2.506,188.11,-454.163,265.503
-0.787,-1.064,-2.251,267.883,-612.976,309.814
-1.178,-0.43,-1.803,326.843,-793.152,334.351
-1.662,0,-1.094,358.154,-979.858,324.097
-2.392,0.236,0.033,361.694,-1153.381,277.039
-2.629,-0.039,1.733,195.801,-1264.404,214.294
-2.469,0.227,4,-243.164,-1217.285,238.342
-1.139,0.898,4,-518.188,-969.055,283.264
0.69,1.145,4,-416.504,-549.988,233.276
0.524,1.596,4,-150.757,-63.66,123.474
0.374,2.55,4,150.696,309.631,50.659
0.45,2.598,3.031,395.569,460.876,-9.583
0.5,1.889,2.1,458.191,445.251,-96.436
0.484,1.168,1.359,324.341,389.954,-165.588
0.578,0.644,0.747,149.902,357.727,-171.448
0.662,0.319,0.254,35.278,335.51,-136.902
0.589,0.021,-0.1,-41.077,299.194,-106.873
0.501,-0.138,-0.248,-112.183,249.878,-85.083
0.515,-0.326,-0.268,-138.428,197.571,-66.04
0.555,-0.47,-0.179,-117.249,153.992,-50.354
0.627,-0.632,-0.113,-66.101,130.31,-42.969
0.604,-0.731,-0.134,-15.259,124.817,-38.696
0.591,-0.675,-0.208,2.991,131.531,-26.733
0.583,-0.552,-0.325,-1.831,139.526,-4.272
0.587,-0.408,-0.419,-18.555,141.479,16.235
0.605,-0.286,-0.494,-36.865,135.01,26.245
0.629,-0.217,-0.542,-51.025,123.23,27.222
0.653,-0.189,-0.55,-64.453,108.459,24.78
0.696,-0.154,-0.552,-67.444,91.187,19.409
0.726,-0.136,-0.519,-70.313,72.815,12.451
0.762,-0.128,-0.467,-69.885,54.321,5.005
0.791,-0.141,-0.396,-66.162,37.598,-2.075
0.823,-0.147,-0.318,-55.664,24.17,-9.216
0.867,-0.162,-0.223,-32.532,12.817,-17.334
0.912,-0.204,-0.122,0.732,3.601,-24.17
0.963,-0.269,-0.029,29.907,-1.831,-25.94
0.998,-0.299,0.011,33.691,-2.93,-20.569
1.028,-0.296,0.041,12.939,-1.038,-10.254
1.058,-0.242,0.037,-8.911,1.77,0.549
1.083,-0.185,0.028,-24.536,4.944,8.911
1.09,-0.162,0.025,-33.813,7.263,13.489
1.095,-0.135,0.027,-44.128,10.254,16.235
1.094,-0.113,0.028,-50.232,13.977,16.968
1.084,-0.1,0.022,-50.354,18.127,15.076
1.082,-0.073,0.001,-47.302,23.56,11.047
1.078,-0.055,-0.019,-40.222,28.32,4.883
1.068,-0.067,-0.035,-29.297,32.043,-1.587
1.061,-0.094,-0.057,-18.921,35.095,-7.568
1.053,-0.123,-0.089,-11.963,36.804,-11.536
1.032,-0.138,-0.113,-9.094,37.292,-12.634
1.02,-0.144,-0.117,-5.981,36.438,-11.169
1.012,-0.154,-0.124,-0.61,35.339,-9.46
1.002,-0.157,-0.134,4.333,33.997,-7.629
0.991,-0.153,-0.138,5.981,33.325,-4.944
0.985,-0.139,-0.142,5.798,33.02,-2.441
0.979,-0.13,-0.145,6.165,32.288,-1.282
0.977,-0.139,-0.146,4.883,32.043,-0.61
0.969,-0.141,-0.154,-2.563,33.447,0.793
0.957,-0.13,-0.165,-12.939,35.034,2.747
0.944,-0.128,-0.182,-18.982,35.4,3.174
0.938,-0.123,-0.202,-19.348,35.583,2.686
0.932,-0.113,-0.208,-17.456,35.583,1.465
0.919,-0.108,-0.207,-13,34.973,-0.244
0.917,-0.101,-0.198,-6.531,34.058,-2.625
0.922,-0.102,-0.195,0.305,33.997,-6.531
0.917,-0.111,-0.202,5.249,34.058,-10.62
0.919,-0.123,-0.212,7.751,34.729,-13.367
0.919,-0.132,-0.217,8.85,35.4,-14.893
0.918,-0.147,-0.233,11.353,35.278,-15.808
0.922,-0.152,-0.255,13.245,34.912,-16.052
0.923,-0.158,-0.269,14.16,33.997,-15.93
0.925,-0.173,-0.276,15.076,32.654,-15.076
0.925,-0.182,-0.283,13.123,32.227,-13.367
0.931,-0.182,-0.281,6.348,32.41,-11.23
0.933,-0.201,-0.278,-2.38,33.203,-8.728
0.926,-0.203,-0.282,-14.099,34.973,-5.005
0.927,-0.195,-0.296,-22.4,36.316,-2.38
0.934,-0.19,-0.317,-23.926,36.011,-1.709
0.933,-0.186,-0.335,-19.531,34.485,-2.258
0.935,-0.183,-0.342,-9.827,31.433,-3.784
0.935,-0.182,-0.336,0.854,28.259,-5.859
0.932,-0.186,-0.327,10.681,25.085,-7.996
0.935,-0.19,-0.317,18.188,22.827,-9.705
0.937,-0.196,-0.308,22.827,21.484,-11.047
0.937,-0.208,-0.301,23.682,21.606,-11.047
0.938,-0.211,-0.302,19.653,22.827,-9.583
0.934,-0.213,-0.308,13.794,23.926,-7.751
0.934,-0.219,-0.316,8.484,24.658,-5.432
0.927,-0.219,-0.319,2.136,25.696,-2.686
0.919,-0.219,-0.319,-5.737,26.978,-0.183
0.912,-0.21,-0.319,-13.306,28.809,2.075
0.907,-0.195,-0.321,-17.639,31.006,3.418
0.904,-0.182,-0.325,-17.7,33.203,3.418
0.902,-0.172,-0.334,-15.686,35.034,1.709
0.899,-0.17,-0.343,-12.329,36.255,-0.61
0.894,-0.176,-0.346,-6.897,37.109,-3.235
0.891,-0.183,-0.353,0.061,37.964,-6.226
0.883,-0.19,-0.363,4.028,38.94,-8.24
0.88,-0.188,-0.374,4.333,39.917,-9.216
0.881,-0.193,-0.38,3.784,40.588,-9.888
0.877,-0.208,-0.387,0.793,41.504,-9.644
0.869,-0.234,-0.395,-8.545,43.274,-7.751
0.861,-0.237,-0.408,-23.682,45.715,-3.723
0.861,-0.225,-0.423,-36.743,47.058,-0.61
0.857,-0.22,-0.443,-41.87,46.997,0.183
0.843,-0.225,-0.463,-41.016,45.288,0
0.842,-0.223,-0.472,-35.95,43.64,-0.732
0.844,-0.228,-0.47,-28.381,41.504,-2.258
0.838,-0.237,-0.47,-20.386,39.429,-4.211
0.839,-0.226,-0.454,-13.367,38.391,-5.676
0.846,-0.224,-0.436,-5.493,37.476,-7.629
0.85,-0.231,-0.42,-0.305,38.269,-8.972
0.85,-0.241,-0.405,-0.305,39.429,-8.85
0.851,-0.25,-0.401,-2.747,41.504,-7.263
,,,,,
-0.246,-1.226,-1.628,-112,-13.062,-32.166
-0.304,-1.454,-1.841,-91.003,-51.514,4.395
-0.364,-1.562,-2.052,-47.791,-101.929,52.002
-0.375,-1.588,-2.198,13.489,-167.236,102.661
-0.388,-1.527,-2.23,85.999,-249.084,152.527
-0.433,-1.399,-2.179,155.151,-341.248,198.059
-0.508,-1.209,-2.119,216.797,-444.58,231.689
-0.658,-1.026,-1.998,258.911,-561.34,253.906
-0.865,-0.767,-1.768,284.119,-689.636,265.564
-1.216,-0.378,-1.294,301.758,-827.332,267.151
-1.715,-0.086,-0.49,332.031,-965.942,245.85
-2.147,-0.016,0.579,304.626,-1078.125,202.454
-2.263,-0.291,3.83,50.415,-1114.563,200.256
-1.724,-0.201,4,-229.736,-968.689,276.245
-0.037,-0.218,4,-242.004,-566.833,299.438
0.045,1.355,4,-187.5,-54.321,315.979
-0.04,3.413,4,-44.067,312.378,292.786
0.398,4,3.353,130.798,428.284,183.105
0.603,3.465,2.232,229.126,396.118,17.639
0.699,2.352,1.53,193.848,352.234,-129.761
0.603,1.387,1.085,79.651,340.515,-215.515
0.512,0.685,0.686,10.742,349.06,-246.216
0.394,0.095,0.218,-28.87,349.915,-240.479
0.29,-0.382,-0.083,-82.52,332.703,-222.9
0.379,-0.76,-0.334,-138.977,304.321,-193.237
0.41,-0.975,-0.583,-166.26,274.109,-155.457
0.284,-1.028,-0.686,-157.593,241.455,-112.671
0.331,-0.997,-0.817,-108.337,198.608,-77.148
0.453,-0.909,-0.859,-22.217,164.978,-58.594
0.514,-0.858,-0.836,32.227,135.498,-39.063
0.525,-0.807,-0.843,38.086,109.497,-11.353
0.535,-0.691,-0.848,0.671,87.83,16.663
0.591,-0.499,-0.85,-49.561,66.65,37.109
0.665,-0.317,-0.811,-89.905,42.603,46.082
0.716,-0.215,-0.698,-95.459,13.794,44.373
0.772,-0.196,-0.52,-61.401,-15.503,35.034
0.828,-0.2,-0.328,-14.404,-39.368,24.048
0.877,-0.188,-0.151,16.541,-52.246,14.709
0.912,-0.159,-0.002,28.503,-53.345,8.484
0.956,-0.116,0.091,31.189,-46.082,4.883
0.987,-0.088,0.14,32.104,-36.438,1.038
1.015,-0.082,0.14,32.227,-27.527,-2.38
1.054,-0.062,0.122,28.32,-20.264,-4.578
1.08,-0.028,0.103,22.217,-15.625,-5.493
1.099,0,0.093,17.883,-13.489,-6.897
1.114,0.008,0.087,16.541,-11.841,-9.277
1.117,0.006,0.069,15.32,-9.521,-12.268
1.117,-0.003,0.058,12.451,-5.737,-15.32
1.108,-0.026,0.052,7.812,-0.916,-16.907
1.09,-0.044,0.038,2.441,4.761,-16.846
1.075,-0.054,0.014,-3.845,11.353,-16.235
1.053,-0.064,-0.016,-10.254,17.334,-14.282
1.032,-0.072,-0.038,-16.541,22.217,-12.024
1.013,-0.088,-0.057,-18.86,25.33,-10.742
0.999,-0.1,-0.082,-18.066,27.71,-9.338
0.974,-0.104,-0.109,-17.761,29.724,-7.324
0.952,-0.104,-0.13,-16.235,31.067,-5.615
0.941,-0.101,-0.16,-14.038,31.189,-4.089
0.927,-0.099,-0.188,-14.038,30.579,-2.319
0.911,-0.094,-0.216,-15.381,29.236,-0.671
0.907,-0.08,-0.233,-16.418,27.405,0.305
0.905,-0.08,-0.237,-14.465,24.78,0.244
0.899,-0.105,-0.244,-9.949,21.79,-0.183
0.894,-0.116,-0.244,-8.362,20.325,-0.061
0.895,-0.109,-0.243,-9.338,20.203,-0.061
0.896,-0.101,-0.241,-8.85,20.813,-0.854
0.897,-0.101,-0.253,-7.507,22.034,-2.625
0.901,-0.112,-0.268,-6.47,23.193,-5.005
0.907,-0.126,-0.285,-6.653,22.949,-6.714
0.912,-0.135,-0.299,-6.775,21.179,-7.141
0.922,-0.145,-0.305,-6.958,18.188,-6.348
0.934,-0.147,-0.307,-8.911,14.954,-4.517
0.942,-0.143,-0.304,-11.78,12.146,-2.136
0.946,-0.139,-0.303,-14.343,9.949,-0.183
0.95,-0.13,-0.306,-15.198,8.484,0.488
0.955,-0.12,-0.305,-11.841,6.592,0.183
0.961,-0.125,-0.297,-5.493,4.517,-0.549
0.962,-0.135,-0.292,-0.793,3.113,-1.038
0.961,-0.137,-0.278,0.793,2.319,-0.977
0.965,-0.133,-0.265,1.16,1.77,-0.61
0.967,-0.133,-0.259,1.892,1.953,0.122
0.969,-0.125,-0.26,1.892,3.052,0.854
0.964,-0.115,-0.262,1.099,4.272,1.526
0.967,-0.112,-0.266,1.709,4.7,1.648
0.967,-0.116,-0.272,1.953,5.493,1.648
0.967,-0.115,-0.284,-1.282,6.714,1.892
0.965,-0.111,-0.293,-5.432,7.507,1.526
0.962,-0.111,-0.296,-7.324,7.812,0.793
0.959,-0.105,-0.289,-6.104,7.874,-0.244
0.959,-0.095,-0.272,-1.648,7.568,-2.136
0.966,-0.1,-0.256,7.751,6.775,-5.066
0.963,-0.126,-0.246,16.602,6.042,-6.958
0.964,-0.143,-0.238,17.334,6.104,-7.019
0.962,-0.145,-0.241,11.414,6.226,-4.761
0.956,-0.125,-0.233,3.418,6.409,-0.916
0.947,-0.106,-0.223,-5.31,7.751,2.93
0.931,-0.09,-0.246,-10.559,9.277,5.249
0.923,-0.082,-0.27,-12.085,9.827,5.798
0.923,-0.069,-0.28,-10.132,9.583,5.371
0.93,-0.064,-0.285,-4.272,8.667,3.723
0.94,-0.078,-0.27,6.287,6.653,0.732
0.946,-0.102,-0.247,15.015,5.554,-1.404
0.953,-0.123,-0.221,18.921,6.287,-2.136
0.962,-0.139,-0.216,16.968,8.423,-1.526
0.963,-0.141,-0.224,10.864,10.803,-0.061
0.965,-0.14,-0.235,4.7,13.123,2.197
0.966,-0.136,-0.251,0.732,14.893,4.578
0.966,-0.125,-0.266,-2.563,15.564,6.287
0.964,-0.122,-0.279,-3.723,15.381,7.507
0.963,-0.129,-0.283,-3.235,14.648,8.301
0.959,-0.128,-0.284,-2.747,13.489,9.155
0.958,-0.118,-0.284,-5.249,13.306,10.193
0.96,-0.11,-0.281,-7.874,14.099,10.986
0.96,-0.12,-0.275,-8.057,14.587,10.864
0.957,-0.128,-0.283,-7.202,15.442,10.681
0.962,-0.12,-0.289,-7.69,16.785,10.803
0.963,-0.107,-0.291,-8.362,17.395,10.437
0.96,-0.108,-0.305,-7.874,17.212,9.827
0.956,-0.105,-0.319,-6.958,17.029,9.46